"rt","stimulus","response","trial_type","trial_index","time_elapsed","internal_node_id","subject_id","study_id","session_id","block","sr","outcome","accuracy"
"7825","<p> Welcome to the experiment. </p> <p> Press any key to begin. </p>","enter","html-keyboard-response","0","7840","0.0-0.0","5b40ff8b3d066d0001609b63","64ad530e4483ba3cf33d797a","64baf9a0c826e02a049a4d4c","","","",""
"66294","<object 
      type=""application/pdf"" 
      data=""PIL.pdf"" 
      width=""900""
      height=""500""
      > 
      </object>
      <p>Press any key to continue.</p>
      ","enter","html-keyboard-response","1","74183","0.0-1.0","5b40ff8b3d066d0001609b63","64ad530e4483ba3cf33d797a","64baf9a0c826e02a049a4d4c","","","",""
"19436","<p>By checking the box below, I confirm that:</p>
      <p>  1.	I have read and understand the information sheet for the above study. 
        I have had the opportunity to consider the information, ask questions and have 
        had these answered satisfactorily. </p>
      <p>  2.	I understand that my participation is voluntary and that I am free to withdraw 
        at any time without giving any reason, without my rights being affected.</p>
      <p>  3.	I understand that data collected during the study, may be looked at by individuals 
        from The University of Warwick. I give permission for these individuals to have access to my data.</p>
      <p>  4.	I understand that my choice and response time in the study will be recorded.</p> 
      <p>  5.	I understand that my anonymized data will be made publicly available to the scientific 
        community. There will be no way to tie these anonymized data back to me personally. </p>
      <p>  6.	I understand that my data may be used in future research. </p>
      <p>  7.  I agree to take part in the above study.	</p>
      </div>
      <p> If you do not agree, please exit by closing the browser. </p>
      <p> I have read and agreed with the points above. </p>
      ","0","html-button-response","2","93622","0.0-2.0","5b40ff8b3d066d0001609b63","64ad530e4483ba3cf33d797a","64baf9a0c826e02a049a4d4c","","","",""
"52773","
        <p>This experiment should not take more than 15-20 minutes.</p>
        </div>
        <p>On the screen you will see two options, A and B.  
          You are required to choose between these options for 50 times(trials) without any prior information.
          This constitutes one block. You will have 4 such blocks.</p>
        <p>You will start the experiment with 0 tokens.
          Each option will correspond to some loss or gain of tokens.
          Each block has different token values for each option.</p>
        <p>When you click on an option, the colour of the option will change to green.
          The tokens gained or lost will be shown under the choices after each trial.
          The tokens will accumulate within each block and are shown on the screen.
          After each block, the total tokens will be shown on the screen before the start of the next block.
          At the end of all 4 blocks, the accumulated tokens for all blocks will be shown.
          These tokens will convert to bonus payments you will recieve at the end of the experiment.</p>
          </div>
          <p> Press any key to read more about how the tokens convert to additional payments.</p>
      ","enter","html-keyboard-response","3","146399","0.0-3.0","5b40ff8b3d066d0001609b63","64ad530e4483ba3cf33d797a","64baf9a0c826e02a049a4d4c","","","",""
"14663","
        <p>You will receive £2.00 as a base payment for 15-20 minutes of your time along with 
          additional bonus payments.</p>
        </div>
        <p>The additional bonus payments are as follows:</p>
        <p>For 0 - 100 tokens, you will receive £0.50</p>
        <p>For 100 - 200 tokens, you will receive £1.00</p>
        <p>For 200 - 300 tokens, you will receive £1.50</p>
        <p>If you get 300 tokens or above, you will receive £2.00</p>
        <p>However, if the final accumulated tokens are negative, you will not receive any additional bonus 
          payments over the base payment.</p>
          </div>
          <p> Press any key to start the experiment.</p>
      ","enter","html-keyboard-response","4","161064","0.0-4.0","5b40ff8b3d066d0001609b63","64ad530e4483ba3cf33d797a","64baf9a0c826e02a049a4d4c","","","",""
"","","","pavlovia","5","162331","0.0-5.0","5b40ff8b3d066d0001609b63","64ad530e4483ba3cf33d797a","64baf9a0c826e02a049a4d4c","","","",""
"978","<p> Block 1</div> Press any key to continue. </p>","enter","html-keyboard-response","6","163311","0.0-6.0","5b40ff8b3d066d0001609b63","64ad530e4483ba3cf33d797a","64baf9a0c826e02a049a4d4c","","","",""
"2532","<p> Total Tokens for current block: 0.00</p><p>Choose one of the following gambles:</p>","0","html-button-response","7","165844","0.0-7.0","5b40ff8b3d066d0001609b63","64ad530e4483ba3cf33d797a","64baf9a0c826e02a049a4d4c","0","R","-204",""
"3306","<p> Total Tokens for current block: -204.00</p><p>Choose one of the following gambles:</p>","1","html-button-response","8","169152","0.0-8.0","5b40ff8b3d066d0001609b63","64ad530e4483ba3cf33d797a","64baf9a0c826e02a049a4d4c","0","S","-102",""
"2162","<p> Total Tokens for current block: -306.00</p><p>Choose one of the following gambles:</p>","0","html-button-response","9","171315","0.0-9.0","5b40ff8b3d066d0001609b63","64ad530e4483ba3cf33d797a","64baf9a0c826e02a049a4d4c","0","R","-200",""
"2196","<p> Total Tokens for current block: -506.00</p><p>Choose one of the following gambles:</p>","0","html-button-response","10","173513","0.0-10.0","5b40ff8b3d066d0001609b63","64ad530e4483ba3cf33d797a","64baf9a0c826e02a049a4d4c","0","R","-198",""
"2351","<p> Total Tokens for current block: -704.00</p><p>Choose one of the following gambles:</p>","1","html-button-response","11","175866","0.0-11.0","5b40ff8b3d066d0001609b63","64ad530e4483ba3cf33d797a","64baf9a0c826e02a049a4d4c","0","S","-101",""
"2096","<p> Total Tokens for current block: -805.00</p><p>Choose one of the following gambles:</p>","1","html-button-response","12","177963","0.0-12.0","5b40ff8b3d066d0001609b63","64ad530e4483ba3cf33d797a","64baf9a0c826e02a049a4d4c","0","S","-99",""
"2394","<p> Total Tokens for current block: -904.00</p><p>Choose one of the following gambles:</p>","1","html-button-response","13","180358","0.0-13.0","5b40ff8b3d066d0001609b63","64ad530e4483ba3cf33d797a","64baf9a0c826e02a049a4d4c","0","S","-103",""
"2088","<p> Total Tokens for current block: -1007.00</p><p>Choose one of the following gambles:</p>","0","html-button-response","14","182447","0.0-14.0","5b40ff8b3d066d0001609b63","64ad530e4483ba3cf33d797a","64baf9a0c826e02a049a4d4c","0","R","0",""
"2177","<p> Total Tokens for current block: -1007.00</p><p>Choose one of the following gambles:</p>","1","html-button-response","15","184626","0.0-15.0","5b40ff8b3d066d0001609b63","64ad530e4483ba3cf33d797a","64baf9a0c826e02a049a4d4c","0","S","-101",""
"2040","<p> Total Tokens for current block: -1108.00</p><p>Choose one of the following gambles:</p>","0","html-button-response","16","186667","0.0-16.0","5b40ff8b3d066d0001609b63","64ad530e4483ba3cf33d797a","64baf9a0c826e02a049a4d4c","0","R","0",""
"2083","<p> Total Tokens for current block: -1108.00</p><p>Choose one of the following gambles:</p>","0","html-button-response","17","188751","0.0-17.0","5b40ff8b3d066d0001609b63","64ad530e4483ba3cf33d797a","64baf9a0c826e02a049a4d4c","0","R","0",""
"2050","<p> Total Tokens for current block: -1108.00</p><p>Choose one of the following gambles:</p>","0","html-button-response","18","190804","0.0-18.0","5b40ff8b3d066d0001609b63","64ad530e4483ba3cf33d797a","64baf9a0c826e02a049a4d4c","0","R","0",""
"2109","<p> Total Tokens for current block: -1108.00</p><p>Choose one of the following gambles:</p>","0","html-button-response","19","192913","0.0-19.0","5b40ff8b3d066d0001609b63","64ad530e4483ba3cf33d797a","64baf9a0c826e02a049a4d4c","0","R","-202",""
"2040","<p> Total Tokens for current block: -1310.00</p><p>Choose one of the following gambles:</p>","1","html-button-response","20","194955","0.0-20.0","5b40ff8b3d066d0001609b63","64ad530e4483ba3cf33d797a","64baf9a0c826e02a049a4d4c","0","S","-96",""
"1703","<p> Total Tokens for current block: -1406.00</p><p>Choose one of the following gambles:</p>","1","html-button-response","21","196658","0.0-21.0","5b40ff8b3d066d0001609b63","64ad530e4483ba3cf33d797a","64baf9a0c826e02a049a4d4c","0","S","-98",""
"2167","<p> Total Tokens for current block: -1504.00</p><p>Choose one of the following gambles:</p>","1","html-button-response","22","198827","0.0-22.0","5b40ff8b3d066d0001609b63","64ad530e4483ba3cf33d797a","64baf9a0c826e02a049a4d4c","0","S","-102",""
"2037","<p> Total Tokens for current block: -1606.00</p><p>Choose one of the following gambles:</p>","1","html-button-response","23","200864","0.0-23.0","5b40ff8b3d066d0001609b63","64ad530e4483ba3cf33d797a","64baf9a0c826e02a049a4d4c","0","S","-96",""
"2049","<p> Total Tokens for current block: -1702.00</p><p>Choose one of the following gambles:</p>","0","html-button-response","24","202913","0.0-24.0","5b40ff8b3d066d0001609b63","64ad530e4483ba3cf33d797a","64baf9a0c826e02a049a4d4c","0","R","0",""
"2202","<p> Total Tokens for current block: -1702.00</p><p>Choose one of the following gambles:</p>","0","html-button-response","25","205117","0.0-25.0","5b40ff8b3d066d0001609b63","64ad530e4483ba3cf33d797a","64baf9a0c826e02a049a4d4c","0","R","-200",""
"2052","<p> Total Tokens for current block: -1902.00</p><p>Choose one of the following gambles:</p>","1","html-button-response","26","207170","0.0-26.0","5b40ff8b3d066d0001609b63","64ad530e4483ba3cf33d797a","64baf9a0c826e02a049a4d4c","0","S","-102",""
"2178","<p> Total Tokens for current block: -2004.00</p><p>Choose one of the following gambles:</p>","0","html-button-response","27","209349","0.0-27.0","5b40ff8b3d066d0001609b63","64ad530e4483ba3cf33d797a","64baf9a0c826e02a049a4d4c","0","R","0",""
"2208","<p> Total Tokens for current block: -2004.00</p><p>Choose one of the following gambles:</p>","0","html-button-response","28","211560","0.0-28.0","5b40ff8b3d066d0001609b63","64ad530e4483ba3cf33d797a","64baf9a0c826e02a049a4d4c","0","R","0",""
"2294","<p> Total Tokens for current block: -2004.00</p><p>Choose one of the following gambles:</p>","0","html-button-response","29","213855","0.0-29.0","5b40ff8b3d066d0001609b63","64ad530e4483ba3cf33d797a","64baf9a0c826e02a049a4d4c","0","R","0",""
"2072","<p> Total Tokens for current block: -2004.00</p><p>Choose one of the following gambles:</p>","0","html-button-response","30","215927","0.0-30.0","5b40ff8b3d066d0001609b63","64ad530e4483ba3cf33d797a","64baf9a0c826e02a049a4d4c","0","R","-197",""
"2077","<p> Total Tokens for current block: -2201.00</p><p>Choose one of the following gambles:</p>","1","html-button-response","31","218006","0.0-31.0","5b40ff8b3d066d0001609b63","64ad530e4483ba3cf33d797a","64baf9a0c826e02a049a4d4c","0","S","-96",""
"2123","<p> Total Tokens for current block: -2297.00</p><p>Choose one of the following gambles:</p>","0","html-button-response","32","220129","0.0-32.0","5b40ff8b3d066d0001609b63","64ad530e4483ba3cf33d797a","64baf9a0c826e02a049a4d4c","0","R","-201",""
"2061","<p> Total Tokens for current block: -2498.00</p><p>Choose one of the following gambles:</p>","1","html-button-response","33","222191","0.0-33.0","5b40ff8b3d066d0001609b63","64ad530e4483ba3cf33d797a","64baf9a0c826e02a049a4d4c","0","S","-103",""
"2122","<p> Total Tokens for current block: -2601.00</p><p>Choose one of the following gambles:</p>","0","html-button-response","34","224315","0.0-34.0","5b40ff8b3d066d0001609b63","64ad530e4483ba3cf33d797a","64baf9a0c826e02a049a4d4c","0","R","0",""
"2302","<p> Total Tokens for current block: -2601.00</p><p>Choose one of the following gambles:</p>","0","html-button-response","35","226620","0.0-35.0","5b40ff8b3d066d0001609b63","64ad530e4483ba3cf33d797a","64baf9a0c826e02a049a4d4c","0","R","0",""
"2148","<p> Total Tokens for current block: -2601.00</p><p>Choose one of the following gambles:</p>","0","html-button-response","36","228769","0.0-36.0","5b40ff8b3d066d0001609b63","64ad530e4483ba3cf33d797a","64baf9a0c826e02a049a4d4c","0","R","-204",""
"2054","<p> Total Tokens for current block: -2805.00</p><p>Choose one of the following gambles:</p>","1","html-button-response","37","230825","0.0-37.0","5b40ff8b3d066d0001609b63","64ad530e4483ba3cf33d797a","64baf9a0c826e02a049a4d4c","0","S","-103",""
"2139","<p> Total Tokens for current block: -2908.00</p><p>Choose one of the following gambles:</p>","1","html-button-response","38","232965","0.0-38.0","5b40ff8b3d066d0001609b63","64ad530e4483ba3cf33d797a","64baf9a0c826e02a049a4d4c","0","S","-99",""
"2128","<p> Total Tokens for current block: -3007.00</p><p>Choose one of the following gambles:</p>","1","html-button-response","39","235093","0.0-39.0","5b40ff8b3d066d0001609b63","64ad530e4483ba3cf33d797a","64baf9a0c826e02a049a4d4c","0","S","-105",""
"2060","<p> Total Tokens for current block: -3112.00</p><p>Choose one of the following gambles:</p>","0","html-button-response","40","237154","0.0-40.0","5b40ff8b3d066d0001609b63","64ad530e4483ba3cf33d797a","64baf9a0c826e02a049a4d4c","0","R","-200",""
"2053","<p> Total Tokens for current block: -3312.00</p><p>Choose one of the following gambles:</p>","0","html-button-response","41","239208","0.0-41.0","5b40ff8b3d066d0001609b63","64ad530e4483ba3cf33d797a","64baf9a0c826e02a049a4d4c","0","R","0",""
"2086","<p> Total Tokens for current block: -3312.00</p><p>Choose one of the following gambles:</p>","0","html-button-response","42","241297","0.0-42.0","5b40ff8b3d066d0001609b63","64ad530e4483ba3cf33d797a","64baf9a0c826e02a049a4d4c","0","R","0",""
"1796","<p> Total Tokens for current block: -3312.00</p><p>Choose one of the following gambles:</p>","1","html-button-response","43","243093","0.0-43.0","5b40ff8b3d066d0001609b63","64ad530e4483ba3cf33d797a","64baf9a0c826e02a049a4d4c","0","S","-104",""
"2071","<p> Total Tokens for current block: -3416.00</p><p>Choose one of the following gambles:</p>","0","html-button-response","44","245166","0.0-44.0","5b40ff8b3d066d0001609b63","64ad530e4483ba3cf33d797a","64baf9a0c826e02a049a4d4c","0","R","-201",""
"1563","<p> Total Tokens for current block: -3617.00</p><p>Choose one of the following gambles:</p>","1","html-button-response","45","246728","0.0-45.0","5b40ff8b3d066d0001609b63","64ad530e4483ba3cf33d797a","64baf9a0c826e02a049a4d4c","0","S","-102",""
"2215","<p> Total Tokens for current block: -3719.00</p><p>Choose one of the following gambles:</p>","0","html-button-response","46","248947","0.0-46.0","5b40ff8b3d066d0001609b63","64ad530e4483ba3cf33d797a","64baf9a0c826e02a049a4d4c","0","R","0",""
"2139","<p> Total Tokens for current block: -3719.00</p><p>Choose one of the following gambles:</p>","0","html-button-response","47","251087","0.0-47.0","5b40ff8b3d066d0001609b63","64ad530e4483ba3cf33d797a","64baf9a0c826e02a049a4d4c","0","R","0",""
"2233","<p> Total Tokens for current block: -3719.00</p><p>Choose one of the following gambles:</p>","0","html-button-response","48","253322","0.0-48.0","5b40ff8b3d066d0001609b63","64ad530e4483ba3cf33d797a","64baf9a0c826e02a049a4d4c","0","R","-197",""
"2413","<p> Total Tokens for current block: -3916.00</p><p>Choose one of the following gambles:</p>","1","html-button-response","49","255737","0.0-49.0","5b40ff8b3d066d0001609b63","64ad530e4483ba3cf33d797a","64baf9a0c826e02a049a4d4c","0","S","-96",""
"2454","<p> Total Tokens for current block: -4012.00</p><p>Choose one of the following gambles:</p>","1","html-button-response","50","258193","0.0-50.0","5b40ff8b3d066d0001609b63","64ad530e4483ba3cf33d797a","64baf9a0c826e02a049a4d4c","0","S","-100",""
"2086","<p> Total Tokens for current block: -4112.00</p><p>Choose one of the following gambles:</p>","1","html-button-response","51","260281","0.0-51.0","5b40ff8b3d066d0001609b63","64ad530e4483ba3cf33d797a","64baf9a0c826e02a049a4d4c","0","S","-96",""
"1758","<p> Total Tokens for current block: -4208.00</p><p>Choose one of the following gambles:</p>","0","html-button-response","52","262040","0.0-52.0","5b40ff8b3d066d0001609b63","64ad530e4483ba3cf33d797a","64baf9a0c826e02a049a4d4c","0","R","0",""
"2173","<p> Total Tokens for current block: -4208.00</p><p>Choose one of the following gambles:</p>","0","html-button-response","53","264215","0.0-53.0","5b40ff8b3d066d0001609b63","64ad530e4483ba3cf33d797a","64baf9a0c826e02a049a4d4c","0","R","0",""
"2133","<p> Total Tokens for current block: -4208.00</p><p>Choose one of the following gambles:</p>","0","html-button-response","54","266348","0.0-54.0","5b40ff8b3d066d0001609b63","64ad530e4483ba3cf33d797a","64baf9a0c826e02a049a4d4c","0","R","-201",""
"2738","<p> Total Tokens for current block: -4409.00</p><p>Choose one of the following gambles:</p>","0","html-button-response","55","269087","0.0-55.0","5b40ff8b3d066d0001609b63","64ad530e4483ba3cf33d797a","64baf9a0c826e02a049a4d4c","0","R","-197",""
"2152","<p> Total Tokens for current block: -4606.00</p><p>Choose one of the following gambles:</p>","0","html-button-response","56","271240","0.0-56.0","5b40ff8b3d066d0001609b63","64ad530e4483ba3cf33d797a","64baf9a0c826e02a049a4d4c","0","R","0",""
"null","<p> Total Tokens for Block 1: -4606.00 </p>","null","html-keyboard-response","57","273243","0.0-57.0","5b40ff8b3d066d0001609b63","64ad530e4483ba3cf33d797a","64baf9a0c826e02a049a4d4c","","","",""
"1675","<p> Block 2</div> Press any key to continue. </p>","enter","html-keyboard-response","58","274919","0.0-58.0","5b40ff8b3d066d0001609b63","64ad530e4483ba3cf33d797a","64baf9a0c826e02a049a4d4c","","","",""
"2064","<p> Total Tokens for current block: 0.00</p><p>Choose one of the following gambles:</p>","1","html-button-response","59","276982","0.0-59.0","5b40ff8b3d066d0001609b63","64ad530e4483ba3cf33d797a","64baf9a0c826e02a049a4d4c","1","S","-25",""
"2080","<p> Total Tokens for current block: -25.00</p><p>Choose one of the following gambles:</p>","0","html-button-response","60","279062","0.0-60.0","5b40ff8b3d066d0001609b63","64ad530e4483ba3cf33d797a","64baf9a0c826e02a049a4d4c","1","R","0",""
"2129","<p> Total Tokens for current block: -25.00</p><p>Choose one of the following gambles:</p>","1","html-button-response","61","281193","0.0-61.0","5b40ff8b3d066d0001609b63","64ad530e4483ba3cf33d797a","64baf9a0c826e02a049a4d4c","1","S","-19",""
"1476","<p> Total Tokens for current block: -44.00</p><p>Choose one of the following gambles:</p>","0","html-button-response","62","282670","0.0-62.0","5b40ff8b3d066d0001609b63","64ad530e4483ba3cf33d797a","64baf9a0c826e02a049a4d4c","1","R","-44",""
"2108","<p> Total Tokens for current block: -88.00</p><p>Choose one of the following gambles:</p>","1","html-button-response","63","284779","0.0-63.0","5b40ff8b3d066d0001609b63","64ad530e4483ba3cf33d797a","64baf9a0c826e02a049a4d4c","1","S","-22",""
"2272","<p> Total Tokens for current block: -110.00</p><p>Choose one of the following gambles:</p>","0","html-button-response","64","287053","0.0-64.0","5b40ff8b3d066d0001609b63","64ad530e4483ba3cf33d797a","64baf9a0c826e02a049a4d4c","1","R","-35",""
"2093","<p> Total Tokens for current block: -145.00</p><p>Choose one of the following gambles:</p>","1","html-button-response","65","289147","0.0-65.0","5b40ff8b3d066d0001609b63","64ad530e4483ba3cf33d797a","64baf9a0c826e02a049a4d4c","1","S","-24",""
"2103","<p> Total Tokens for current block: -169.00</p><p>Choose one of the following gambles:</p>","1","html-button-response","66","291251","0.0-66.0","5b40ff8b3d066d0001609b63","64ad530e4483ba3cf33d797a","64baf9a0c826e02a049a4d4c","1","S","-19",""
"2188","<p> Total Tokens for current block: -188.00</p><p>Choose one of the following gambles:</p>","1","html-button-response","67","293439","0.0-67.0","5b40ff8b3d066d0001609b63","64ad530e4483ba3cf33d797a","64baf9a0c826e02a049a4d4c","1","S","-18",""
"2096","<p> Total Tokens for current block: -206.00</p><p>Choose one of the following gambles:</p>","0","html-button-response","68","295537","0.0-68.0","5b40ff8b3d066d0001609b63","64ad530e4483ba3cf33d797a","64baf9a0c826e02a049a4d4c","1","R","0",""
"2163","<p> Total Tokens for current block: -206.00</p><p>Choose one of the following gambles:</p>","0","html-button-response","69","297701","0.0-69.0","5b40ff8b3d066d0001609b63","64ad530e4483ba3cf33d797a","64baf9a0c826e02a049a4d4c","1","R","-36",""
"2162","<p> Total Tokens for current block: -242.00</p><p>Choose one of the following gambles:</p>","1","html-button-response","70","299865","0.0-70.0","5b40ff8b3d066d0001609b63","64ad530e4483ba3cf33d797a","64baf9a0c826e02a049a4d4c","1","S","-25",""
"2034","<p> Total Tokens for current block: -267.00</p><p>Choose one of the following gambles:</p>","0","html-button-response","71","301900","0.0-71.0","5b40ff8b3d066d0001609b63","64ad530e4483ba3cf33d797a","64baf9a0c826e02a049a4d4c","1","R","0",""
"1599","<p> Total Tokens for current block: -267.00</p><p>Choose one of the following gambles:</p>","1","html-button-response","72","303502","0.0-72.0","5b40ff8b3d066d0001609b63","64ad530e4483ba3cf33d797a","64baf9a0c826e02a049a4d4c","1","S","-19",""
"1968","<p> Total Tokens for current block: -286.00</p><p>Choose one of the following gambles:</p>","0","html-button-response","73","305473","0.0-73.0","5b40ff8b3d066d0001609b63","64ad530e4483ba3cf33d797a","64baf9a0c826e02a049a4d4c","1","R","-45",""
"2019","<p> Total Tokens for current block: -331.00</p><p>Choose one of the following gambles:</p>","1","html-button-response","74","307493","0.0-74.0","5b40ff8b3d066d0001609b63","64ad530e4483ba3cf33d797a","64baf9a0c826e02a049a4d4c","1","S","-23",""
"2561","<p> Total Tokens for current block: -354.00</p><p>Choose one of the following gambles:</p>","0","html-button-response","75","310055","0.0-75.0","5b40ff8b3d066d0001609b63","64ad530e4483ba3cf33d797a","64baf9a0c826e02a049a4d4c","1","R","0",""
"1536","<p> Total Tokens for current block: -354.00</p><p>Choose one of the following gambles:</p>","1","html-button-response","76","311592","0.0-76.0","5b40ff8b3d066d0001609b63","64ad530e4483ba3cf33d797a","64baf9a0c826e02a049a4d4c","1","S","-19",""
"1801","<p> Total Tokens for current block: -373.00</p><p>Choose one of the following gambles:</p>","1","html-button-response","77","313394","0.0-77.0","5b40ff8b3d066d0001609b63","64ad530e4483ba3cf33d797a","64baf9a0c826e02a049a4d4c","1","S","-16",""
"2051","<p> Total Tokens for current block: -389.00</p><p>Choose one of the following gambles:</p>","0","html-button-response","78","315447","0.0-78.0","5b40ff8b3d066d0001609b63","64ad530e4483ba3cf33d797a","64baf9a0c826e02a049a4d4c","1","R","0",""
"1808","<p> Total Tokens for current block: -389.00</p><p>Choose one of the following gambles:</p>","1","html-button-response","79","317256","0.0-79.0","5b40ff8b3d066d0001609b63","64ad530e4483ba3cf33d797a","64baf9a0c826e02a049a4d4c","1","S","-25",""
"1922","<p> Total Tokens for current block: -414.00</p><p>Choose one of the following gambles:</p>","1","html-button-response","80","319179","0.0-80.0","5b40ff8b3d066d0001609b63","64ad530e4483ba3cf33d797a","64baf9a0c826e02a049a4d4c","1","S","-16",""
"2121","<p> Total Tokens for current block: -430.00</p><p>Choose one of the following gambles:</p>","0","html-button-response","81","321301","0.0-81.0","5b40ff8b3d066d0001609b63","64ad530e4483ba3cf33d797a","64baf9a0c826e02a049a4d4c","1","R","0",""
"2258","<p> Total Tokens for current block: -430.00</p><p>Choose one of the following gambles:</p>","1","html-button-response","82","323561","0.0-82.0","5b40ff8b3d066d0001609b63","64ad530e4483ba3cf33d797a","64baf9a0c826e02a049a4d4c","1","S","-25",""
"2003","<p> Total Tokens for current block: -455.00</p><p>Choose one of the following gambles:</p>","1","html-button-response","83","325565","0.0-83.0","5b40ff8b3d066d0001609b63","64ad530e4483ba3cf33d797a","64baf9a0c826e02a049a4d4c","1","S","-22",""
"2042","<p> Total Tokens for current block: -477.00</p><p>Choose one of the following gambles:</p>","0","html-button-response","84","327611","0.0-84.0","5b40ff8b3d066d0001609b63","64ad530e4483ba3cf33d797a","64baf9a0c826e02a049a4d4c","1","R","-44",""
"1675","<p> Total Tokens for current block: -521.00</p><p>Choose one of the following gambles:</p>","0","html-button-response","85","329286","0.0-85.0","5b40ff8b3d066d0001609b63","64ad530e4483ba3cf33d797a","64baf9a0c826e02a049a4d4c","1","R","0",""
"2084","<p> Total Tokens for current block: -521.00</p><p>Choose one of the following gambles:</p>","0","html-button-response","86","331371","0.0-86.0","5b40ff8b3d066d0001609b63","64ad530e4483ba3cf33d797a","64baf9a0c826e02a049a4d4c","1","R","-42",""
"2146","<p> Total Tokens for current block: -563.00</p><p>Choose one of the following gambles:</p>","1","html-button-response","87","333519","0.0-87.0","5b40ff8b3d066d0001609b63","64ad530e4483ba3cf33d797a","64baf9a0c826e02a049a4d4c","1","S","-19",""
"2064","<p> Total Tokens for current block: -582.00</p><p>Choose one of the following gambles:</p>","0","html-button-response","88","335583","0.0-88.0","5b40ff8b3d066d0001609b63","64ad530e4483ba3cf33d797a","64baf9a0c826e02a049a4d4c","1","R","-37",""
"2042","<p> Total Tokens for current block: -619.00</p><p>Choose one of the following gambles:</p>","1","html-button-response","89","337626","0.0-89.0","5b40ff8b3d066d0001609b63","64ad530e4483ba3cf33d797a","64baf9a0c826e02a049a4d4c","1","S","-25",""
"1763","<p> Total Tokens for current block: -644.00</p><p>Choose one of the following gambles:</p>","0","html-button-response","90","339391","0.0-90.0","5b40ff8b3d066d0001609b63","64ad530e4483ba3cf33d797a","64baf9a0c826e02a049a4d4c","1","R","0",""
"2139","<p> Total Tokens for current block: -644.00</p><p>Choose one of the following gambles:</p>","0","html-button-response","91","341532","0.0-91.0","5b40ff8b3d066d0001609b63","64ad530e4483ba3cf33d797a","64baf9a0c826e02a049a4d4c","1","R","0",""
"1855","<p> Total Tokens for current block: -644.00</p><p>Choose one of the following gambles:</p>","1","html-button-response","92","343387","0.0-92.0","5b40ff8b3d066d0001609b63","64ad530e4483ba3cf33d797a","64baf9a0c826e02a049a4d4c","1","S","-25",""
"2091","<p> Total Tokens for current block: -669.00</p><p>Choose one of the following gambles:</p>","1","html-button-response","93","345480","0.0-93.0","5b40ff8b3d066d0001609b63","64ad530e4483ba3cf33d797a","64baf9a0c826e02a049a4d4c","1","S","-23",""
"2052","<p> Total Tokens for current block: -692.00</p><p>Choose one of the following gambles:</p>","1","html-button-response","94","347533","0.0-94.0","5b40ff8b3d066d0001609b63","64ad530e4483ba3cf33d797a","64baf9a0c826e02a049a4d4c","1","S","-21",""
"2098","<p> Total Tokens for current block: -713.00</p><p>Choose one of the following gambles:</p>","0","html-button-response","95","349631","0.0-95.0","5b40ff8b3d066d0001609b63","64ad530e4483ba3cf33d797a","64baf9a0c826e02a049a4d4c","1","R","-45",""
"2049","<p> Total Tokens for current block: -758.00</p><p>Choose one of the following gambles:</p>","1","html-button-response","96","351682","0.0-96.0","5b40ff8b3d066d0001609b63","64ad530e4483ba3cf33d797a","64baf9a0c826e02a049a4d4c","1","S","-17",""
"2209","<p> Total Tokens for current block: -775.00</p><p>Choose one of the following gambles:</p>","1","html-button-response","97","353893","0.0-97.0","5b40ff8b3d066d0001609b63","64ad530e4483ba3cf33d797a","64baf9a0c826e02a049a4d4c","1","S","-25",""
"2127","<p> Total Tokens for current block: -800.00</p><p>Choose one of the following gambles:</p>","0","html-button-response","98","356021","0.0-98.0","5b40ff8b3d066d0001609b63","64ad530e4483ba3cf33d797a","64baf9a0c826e02a049a4d4c","1","R","0",""
"2222","<p> Total Tokens for current block: -800.00</p><p>Choose one of the following gambles:</p>","0","html-button-response","99","358246","0.0-99.0","5b40ff8b3d066d0001609b63","64ad530e4483ba3cf33d797a","64baf9a0c826e02a049a4d4c","1","R","-40",""
"2126","<p> Total Tokens for current block: -840.00</p><p>Choose one of the following gambles:</p>","1","html-button-response","100","360373","0.0-100.0","5b40ff8b3d066d0001609b63","64ad530e4483ba3cf33d797a","64baf9a0c826e02a049a4d4c","1","S","-19",""
"2169","<p> Total Tokens for current block: -859.00</p><p>Choose one of the following gambles:</p>","1","html-button-response","101","362544","0.0-101.0","5b40ff8b3d066d0001609b63","64ad530e4483ba3cf33d797a","64baf9a0c826e02a049a4d4c","1","S","-24",""
"2011","<p> Total Tokens for current block: -883.00</p><p>Choose one of the following gambles:</p>","0","html-button-response","102","364555","0.0-102.0","5b40ff8b3d066d0001609b63","64ad530e4483ba3cf33d797a","64baf9a0c826e02a049a4d4c","1","R","-43",""
"923","<p> Total Tokens for current block: -926.00</p><p>Choose one of the following gambles:</p>","1","html-button-response","103","365479","0.0-103.0","5b40ff8b3d066d0001609b63","64ad530e4483ba3cf33d797a","64baf9a0c826e02a049a4d4c","1","S","-25",""
"1291","<p> Total Tokens for current block: -951.00</p><p>Choose one of the following gambles:</p>","0","html-button-response","104","366771","0.0-104.0","5b40ff8b3d066d0001609b63","64ad530e4483ba3cf33d797a","64baf9a0c826e02a049a4d4c","1","R","-40",""
"1080","<p> Total Tokens for current block: -991.00</p><p>Choose one of the following gambles:</p>","1","html-button-response","105","367852","0.0-105.0","5b40ff8b3d066d0001609b63","64ad530e4483ba3cf33d797a","64baf9a0c826e02a049a4d4c","1","S","-21",""
"1777","<p> Total Tokens for current block: -1012.00</p><p>Choose one of the following gambles:</p>","1","html-button-response","106","369631","0.0-106.0","5b40ff8b3d066d0001609b63","64ad530e4483ba3cf33d797a","64baf9a0c826e02a049a4d4c","1","S","-20",""
"1027","<p> Total Tokens for current block: -1032.00</p><p>Choose one of the following gambles:</p>","1","html-button-response","107","370659","0.0-107.0","5b40ff8b3d066d0001609b63","64ad530e4483ba3cf33d797a","64baf9a0c826e02a049a4d4c","1","S","-18",""
"5205","<p> Total Tokens for current block: -1050.00</p><p>Choose one of the following gambles:</p>","0","html-button-response","108","375865","0.0-108.0","5b40ff8b3d066d0001609b63","64ad530e4483ba3cf33d797a","64baf9a0c826e02a049a4d4c","1","R","0",""
"null","<p> Total Tokens for Block 2: -1050.00 </p>","null","html-keyboard-response","109","377871","0.0-109.0","5b40ff8b3d066d0001609b63","64ad530e4483ba3cf33d797a","64baf9a0c826e02a049a4d4c","","","",""
"11735","<p> Block 3</div> Press any key to continue. </p>","enter","html-keyboard-response","110","389607","0.0-110.0","5b40ff8b3d066d0001609b63","64ad530e4483ba3cf33d797a","64baf9a0c826e02a049a4d4c","","","",""
"1351","<p> Total Tokens for current block: 0.00</p><p>Choose one of the following gambles:</p>","0","html-button-response","111","390957","0.0-111.0","5b40ff8b3d066d0001609b63","64ad530e4483ba3cf33d797a","64baf9a0c826e02a049a4d4c","2","R","42",""
"2273","<p> Total Tokens for current block: 42.00</p><p>Choose one of the following gambles:</p>","1","html-button-response","112","393232","0.0-112.0","5b40ff8b3d066d0001609b63","64ad530e4483ba3cf33d797a","64baf9a0c826e02a049a4d4c","2","S","25",""
"1971","<p> Total Tokens for current block: 67.00</p><p>Choose one of the following gambles:</p>","0","html-button-response","113","395204","0.0-113.0","5b40ff8b3d066d0001609b63","64ad530e4483ba3cf33d797a","64baf9a0c826e02a049a4d4c","2","R","0",""
"1309","<p> Total Tokens for current block: 67.00</p><p>Choose one of the following gambles:</p>","0","html-button-response","114","396515","0.0-114.0","5b40ff8b3d066d0001609b63","64ad530e4483ba3cf33d797a","64baf9a0c826e02a049a4d4c","2","R","41",""
"1850","<p> Total Tokens for current block: 108.00</p><p>Choose one of the following gambles:</p>","0","html-button-response","115","398367","0.0-115.0","5b40ff8b3d066d0001609b63","64ad530e4483ba3cf33d797a","64baf9a0c826e02a049a4d4c","2","R","0",""
"1910","<p> Total Tokens for current block: 108.00</p><p>Choose one of the following gambles:</p>","0","html-button-response","116","400279","0.0-116.0","5b40ff8b3d066d0001609b63","64ad530e4483ba3cf33d797a","64baf9a0c826e02a049a4d4c","2","R","41",""
"1451","<p> Total Tokens for current block: 149.00</p><p>Choose one of the following gambles:</p>","0","html-button-response","117","401731","0.0-117.0","5b40ff8b3d066d0001609b63","64ad530e4483ba3cf33d797a","64baf9a0c826e02a049a4d4c","2","R","0",""
"1522","<p> Total Tokens for current block: 149.00</p><p>Choose one of the following gambles:</p>","0","html-button-response","118","403255","0.0-118.0","5b40ff8b3d066d0001609b63","64ad530e4483ba3cf33d797a","64baf9a0c826e02a049a4d4c","2","R","0",""
"1859","<p> Total Tokens for current block: 149.00</p><p>Choose one of the following gambles:</p>","1","html-button-response","119","405114","0.0-119.0","5b40ff8b3d066d0001609b63","64ad530e4483ba3cf33d797a","64baf9a0c826e02a049a4d4c","2","S","22",""
"2094","<p> Total Tokens for current block: 171.00</p><p>Choose one of the following gambles:</p>","0","html-button-response","120","407209","0.0-120.0","5b40ff8b3d066d0001609b63","64ad530e4483ba3cf33d797a","64baf9a0c826e02a049a4d4c","2","R","0",""
"1662","<p> Total Tokens for current block: 171.00</p><p>Choose one of the following gambles:</p>","1","html-button-response","121","408872","0.0-121.0","5b40ff8b3d066d0001609b63","64ad530e4483ba3cf33d797a","64baf9a0c826e02a049a4d4c","2","S","19",""
"1901","<p> Total Tokens for current block: 190.00</p><p>Choose one of the following gambles:</p>","0","html-button-response","122","410774","0.0-122.0","5b40ff8b3d066d0001609b63","64ad530e4483ba3cf33d797a","64baf9a0c826e02a049a4d4c","2","R","0",""
"1966","<p> Total Tokens for current block: 190.00</p><p>Choose one of the following gambles:</p>","1","html-button-response","123","412742","0.0-123.0","5b40ff8b3d066d0001609b63","64ad530e4483ba3cf33d797a","64baf9a0c826e02a049a4d4c","2","S","21",""
"2007","<p> Total Tokens for current block: 211.00</p><p>Choose one of the following gambles:</p>","1","html-button-response","124","414750","0.0-124.0","5b40ff8b3d066d0001609b63","64ad530e4483ba3cf33d797a","64baf9a0c826e02a049a4d4c","2","S","19",""
"2003","<p> Total Tokens for current block: 230.00</p><p>Choose one of the following gambles:</p>","0","html-button-response","125","416755","0.0-125.0","5b40ff8b3d066d0001609b63","64ad530e4483ba3cf33d797a","64baf9a0c826e02a049a4d4c","2","R","36",""
"1599","<p> Total Tokens for current block: 266.00</p><p>Choose one of the following gambles:</p>","0","html-button-response","126","418355","0.0-126.0","5b40ff8b3d066d0001609b63","64ad530e4483ba3cf33d797a","64baf9a0c826e02a049a4d4c","2","R","0",""
"997","<p> Total Tokens for current block: 266.00</p><p>Choose one of the following gambles:</p>","1","html-button-response","127","419356","0.0-127.0","5b40ff8b3d066d0001609b63","64ad530e4483ba3cf33d797a","64baf9a0c826e02a049a4d4c","2","S","18",""
"2023","<p> Total Tokens for current block: 284.00</p><p>Choose one of the following gambles:</p>","1","html-button-response","128","421383","0.0-128.0","5b40ff8b3d066d0001609b63","64ad530e4483ba3cf33d797a","64baf9a0c826e02a049a4d4c","2","S","16",""
"1512","<p> Total Tokens for current block: 300.00</p><p>Choose one of the following gambles:</p>","0","html-button-response","129","422898","0.0-129.0","5b40ff8b3d066d0001609b63","64ad530e4483ba3cf33d797a","64baf9a0c826e02a049a4d4c","2","R","0",""
"1260","<p> Total Tokens for current block: 300.00</p><p>Choose one of the following gambles:</p>","1","html-button-response","130","424158","0.0-130.0","5b40ff8b3d066d0001609b63","64ad530e4483ba3cf33d797a","64baf9a0c826e02a049a4d4c","2","S","19",""
"1541","<p> Total Tokens for current block: 319.00</p><p>Choose one of the following gambles:</p>","1","html-button-response","131","425702","0.0-131.0","5b40ff8b3d066d0001609b63","64ad530e4483ba3cf33d797a","64baf9a0c826e02a049a4d4c","2","S","21",""
"1321","<p> Total Tokens for current block: 340.00</p><p>Choose one of the following gambles:</p>","1","html-button-response","132","427029","0.0-132.0","5b40ff8b3d066d0001609b63","64ad530e4483ba3cf33d797a","64baf9a0c826e02a049a4d4c","2","S","17",""
"1427","<p> Total Tokens for current block: 357.00</p><p>Choose one of the following gambles:</p>","1","html-button-response","133","428459","0.0-133.0","5b40ff8b3d066d0001609b63","64ad530e4483ba3cf33d797a","64baf9a0c826e02a049a4d4c","2","S","24",""
"837","<p> Total Tokens for current block: 381.00</p><p>Choose one of the following gambles:</p>","0","html-button-response","134","429298","0.0-134.0","5b40ff8b3d066d0001609b63","64ad530e4483ba3cf33d797a","64baf9a0c826e02a049a4d4c","2","R","41",""
"1337","<p> Total Tokens for current block: 422.00</p><p>Choose one of the following gambles:</p>","0","html-button-response","135","430636","0.0-135.0","5b40ff8b3d066d0001609b63","64ad530e4483ba3cf33d797a","64baf9a0c826e02a049a4d4c","2","R","0",""
"1276","<p> Total Tokens for current block: 422.00</p><p>Choose one of the following gambles:</p>","1","html-button-response","136","431917","0.0-136.0","5b40ff8b3d066d0001609b63","64ad530e4483ba3cf33d797a","64baf9a0c826e02a049a4d4c","2","S","22",""
"2040","<p> Total Tokens for current block: 444.00</p><p>Choose one of the following gambles:</p>","1","html-button-response","137","433958","0.0-137.0","5b40ff8b3d066d0001609b63","64ad530e4483ba3cf33d797a","64baf9a0c826e02a049a4d4c","2","S","21",""
"1503","<p> Total Tokens for current block: 465.00</p><p>Choose one of the following gambles:</p>","1","html-button-response","138","435463","0.0-138.0","5b40ff8b3d066d0001609b63","64ad530e4483ba3cf33d797a","64baf9a0c826e02a049a4d4c","2","S","19",""
"992","<p> Total Tokens for current block: 484.00</p><p>Choose one of the following gambles:</p>","0","html-button-response","139","436456","0.0-139.0","5b40ff8b3d066d0001609b63","64ad530e4483ba3cf33d797a","64baf9a0c826e02a049a4d4c","2","R","0",""
"950","<p> Total Tokens for current block: 484.00</p><p>Choose one of the following gambles:</p>","1","html-button-response","140","437407","0.0-140.0","5b40ff8b3d066d0001609b63","64ad530e4483ba3cf33d797a","64baf9a0c826e02a049a4d4c","2","S","20",""
"1125","<p> Total Tokens for current block: 504.00</p><p>Choose one of the following gambles:</p>","1","html-button-response","141","438533","0.0-141.0","5b40ff8b3d066d0001609b63","64ad530e4483ba3cf33d797a","64baf9a0c826e02a049a4d4c","2","S","18",""
"1039","<p> Total Tokens for current block: 522.00</p><p>Choose one of the following gambles:</p>","0","html-button-response","142","439574","0.0-142.0","5b40ff8b3d066d0001609b63","64ad530e4483ba3cf33d797a","64baf9a0c826e02a049a4d4c","2","R","37",""
"1179","<p> Total Tokens for current block: 559.00</p><p>Choose one of the following gambles:</p>","0","html-button-response","143","440754","0.0-143.0","5b40ff8b3d066d0001609b63","64ad530e4483ba3cf33d797a","64baf9a0c826e02a049a4d4c","2","R","0",""
"990","<p> Total Tokens for current block: 559.00</p><p>Choose one of the following gambles:</p>","1","html-button-response","144","441747","0.0-144.0","5b40ff8b3d066d0001609b63","64ad530e4483ba3cf33d797a","64baf9a0c826e02a049a4d4c","2","S","22",""
"1178","<p> Total Tokens for current block: 581.00</p><p>Choose one of the following gambles:</p>","1","html-button-response","145","442926","0.0-145.0","5b40ff8b3d066d0001609b63","64ad530e4483ba3cf33d797a","64baf9a0c826e02a049a4d4c","2","S","20",""
"1308","<p> Total Tokens for current block: 601.00</p><p>Choose one of the following gambles:</p>","1","html-button-response","146","444235","0.0-146.0","5b40ff8b3d066d0001609b63","64ad530e4483ba3cf33d797a","64baf9a0c826e02a049a4d4c","2","S","17",""
"813","<p> Total Tokens for current block: 618.00</p><p>Choose one of the following gambles:</p>","0","html-button-response","147","445051","0.0-147.0","5b40ff8b3d066d0001609b63","64ad530e4483ba3cf33d797a","64baf9a0c826e02a049a4d4c","2","R","0",""
"1632","<p> Total Tokens for current block: 618.00</p><p>Choose one of the following gambles:</p>","0","html-button-response","148","446685","0.0-148.0","5b40ff8b3d066d0001609b63","64ad530e4483ba3cf33d797a","64baf9a0c826e02a049a4d4c","2","R","0",""
"920","<p> Total Tokens for current block: 618.00</p><p>Choose one of the following gambles:</p>","1","html-button-response","149","447606","0.0-149.0","5b40ff8b3d066d0001609b63","64ad530e4483ba3cf33d797a","64baf9a0c826e02a049a4d4c","2","S","16",""
"754","<p> Total Tokens for current block: 634.00</p><p>Choose one of the following gambles:</p>","1","html-button-response","150","448361","0.0-150.0","5b40ff8b3d066d0001609b63","64ad530e4483ba3cf33d797a","64baf9a0c826e02a049a4d4c","2","S","24",""
"836","<p> Total Tokens for current block: 658.00</p><p>Choose one of the following gambles:</p>","1","html-button-response","151","449197","0.0-151.0","5b40ff8b3d066d0001609b63","64ad530e4483ba3cf33d797a","64baf9a0c826e02a049a4d4c","2","S","23",""
"990","<p> Total Tokens for current block: 681.00</p><p>Choose one of the following gambles:</p>","1","html-button-response","152","450188","0.0-152.0","5b40ff8b3d066d0001609b63","64ad530e4483ba3cf33d797a","64baf9a0c826e02a049a4d4c","2","S","23",""
"965","<p> Total Tokens for current block: 704.00</p><p>Choose one of the following gambles:</p>","1","html-button-response","153","451155","0.0-153.0","5b40ff8b3d066d0001609b63","64ad530e4483ba3cf33d797a","64baf9a0c826e02a049a4d4c","2","S","24",""
"967","<p> Total Tokens for current block: 728.00</p><p>Choose one of the following gambles:</p>","1","html-button-response","154","452125","0.0-154.0","5b40ff8b3d066d0001609b63","64ad530e4483ba3cf33d797a","64baf9a0c826e02a049a4d4c","2","S","24",""
"965","<p> Total Tokens for current block: 752.00</p><p>Choose one of the following gambles:</p>","1","html-button-response","155","453091","0.0-155.0","5b40ff8b3d066d0001609b63","64ad530e4483ba3cf33d797a","64baf9a0c826e02a049a4d4c","2","S","23",""
"806","<p> Total Tokens for current block: 775.00</p><p>Choose one of the following gambles:</p>","1","html-button-response","156","453898","0.0-156.0","5b40ff8b3d066d0001609b63","64ad530e4483ba3cf33d797a","64baf9a0c826e02a049a4d4c","2","S","24",""
"1133","<p> Total Tokens for current block: 799.00</p><p>Choose one of the following gambles:</p>","1","html-button-response","157","455033","0.0-157.0","5b40ff8b3d066d0001609b63","64ad530e4483ba3cf33d797a","64baf9a0c826e02a049a4d4c","2","S","17",""
"1004","<p> Total Tokens for current block: 816.00</p><p>Choose one of the following gambles:</p>","1","html-button-response","158","456038","0.0-158.0","5b40ff8b3d066d0001609b63","64ad530e4483ba3cf33d797a","64baf9a0c826e02a049a4d4c","2","S","23",""
"1213","<p> Total Tokens for current block: 839.00</p><p>Choose one of the following gambles:</p>","0","html-button-response","159","457253","0.0-159.0","5b40ff8b3d066d0001609b63","64ad530e4483ba3cf33d797a","64baf9a0c826e02a049a4d4c","2","R","0",""
"705","<p> Total Tokens for current block: 839.00</p><p>Choose one of the following gambles:</p>","1","html-button-response","160","457960","0.0-160.0","5b40ff8b3d066d0001609b63","64ad530e4483ba3cf33d797a","64baf9a0c826e02a049a4d4c","2","S","21",""
"null","<p> Total Tokens for Block 3: 860.00 </p>","null","html-keyboard-response","161","459964","0.0-161.0","5b40ff8b3d066d0001609b63","64ad530e4483ba3cf33d797a","64baf9a0c826e02a049a4d4c","","","",""
"2187","<p> Block 4</div> Press any key to continue. </p>","enter","html-keyboard-response","162","462150","0.0-162.0","5b40ff8b3d066d0001609b63","64ad530e4483ba3cf33d797a","64baf9a0c826e02a049a4d4c","","","",""
"937","<p> Total Tokens for current block: 0.00</p><p>Choose one of the following gambles:</p>","1","html-button-response","163","463088","0.0-163.0","5b40ff8b3d066d0001609b63","64ad530e4483ba3cf33d797a","64baf9a0c826e02a049a4d4c","3","R","0",""
"804","<p> Total Tokens for current block: 0.00</p><p>Choose one of the following gambles:</p>","0","html-button-response","164","463893","0.0-164.0","5b40ff8b3d066d0001609b63","64ad530e4483ba3cf33d797a","64baf9a0c826e02a049a4d4c","3","S","95",""
"797","<p> Total Tokens for current block: 95.00</p><p>Choose one of the following gambles:</p>","0","html-button-response","165","464691","0.0-165.0","5b40ff8b3d066d0001609b63","64ad530e4483ba3cf33d797a","64baf9a0c826e02a049a4d4c","3","S","100",""
"1013","<p> Total Tokens for current block: 195.00</p><p>Choose one of the following gambles:</p>","0","html-button-response","166","465706","0.0-166.0","5b40ff8b3d066d0001609b63","64ad530e4483ba3cf33d797a","64baf9a0c826e02a049a4d4c","3","S","97",""
"905","<p> Total Tokens for current block: 292.00</p><p>Choose one of the following gambles:</p>","0","html-button-response","167","466612","0.0-167.0","5b40ff8b3d066d0001609b63","64ad530e4483ba3cf33d797a","64baf9a0c826e02a049a4d4c","3","S","98",""
"945","<p> Total Tokens for current block: 390.00</p><p>Choose one of the following gambles:</p>","0","html-button-response","168","467558","0.0-168.0","5b40ff8b3d066d0001609b63","64ad530e4483ba3cf33d797a","64baf9a0c826e02a049a4d4c","3","S","104",""
"961","<p> Total Tokens for current block: 494.00</p><p>Choose one of the following gambles:</p>","0","html-button-response","169","468519","0.0-169.0","5b40ff8b3d066d0001609b63","64ad530e4483ba3cf33d797a","64baf9a0c826e02a049a4d4c","3","S","99",""
"922","<p> Total Tokens for current block: 593.00</p><p>Choose one of the following gambles:</p>","0","html-button-response","170","469445","0.0-170.0","5b40ff8b3d066d0001609b63","64ad530e4483ba3cf33d797a","64baf9a0c826e02a049a4d4c","3","S","100",""
"890","<p> Total Tokens for current block: 693.00</p><p>Choose one of the following gambles:</p>","0","html-button-response","171","470337","0.0-171.0","5b40ff8b3d066d0001609b63","64ad530e4483ba3cf33d797a","64baf9a0c826e02a049a4d4c","3","S","104",""
"791","<p> Total Tokens for current block: 797.00</p><p>Choose one of the following gambles:</p>","0","html-button-response","172","471131","0.0-172.0","5b40ff8b3d066d0001609b63","64ad530e4483ba3cf33d797a","64baf9a0c826e02a049a4d4c","3","S","100",""
"896","<p> Total Tokens for current block: 897.00</p><p>Choose one of the following gambles:</p>","0","html-button-response","173","472029","0.0-173.0","5b40ff8b3d066d0001609b63","64ad530e4483ba3cf33d797a","64baf9a0c826e02a049a4d4c","3","S","100",""
"862","<p> Total Tokens for current block: 997.00</p><p>Choose one of the following gambles:</p>","0","html-button-response","174","472893","0.0-174.0","5b40ff8b3d066d0001609b63","64ad530e4483ba3cf33d797a","64baf9a0c826e02a049a4d4c","3","S","103",""
"851","<p> Total Tokens for current block: 1100.00</p><p>Choose one of the following gambles:</p>","0","html-button-response","175","473744","0.0-175.0","5b40ff8b3d066d0001609b63","64ad530e4483ba3cf33d797a","64baf9a0c826e02a049a4d4c","3","S","103",""
"849","<p> Total Tokens for current block: 1203.00</p><p>Choose one of the following gambles:</p>","0","html-button-response","176","474595","0.0-176.0","5b40ff8b3d066d0001609b63","64ad530e4483ba3cf33d797a","64baf9a0c826e02a049a4d4c","3","S","100",""
"836","<p> Total Tokens for current block: 1303.00</p><p>Choose one of the following gambles:</p>","0","html-button-response","177","475430","0.0-177.0","5b40ff8b3d066d0001609b63","64ad530e4483ba3cf33d797a","64baf9a0c826e02a049a4d4c","3","S","95",""
"832","<p> Total Tokens for current block: 1398.00</p><p>Choose one of the following gambles:</p>","0","html-button-response","178","476265","0.0-178.0","5b40ff8b3d066d0001609b63","64ad530e4483ba3cf33d797a","64baf9a0c826e02a049a4d4c","3","S","103",""
"861","<p> Total Tokens for current block: 1501.00</p><p>Choose one of the following gambles:</p>","0","html-button-response","179","477126","0.0-179.0","5b40ff8b3d066d0001609b63","64ad530e4483ba3cf33d797a","64baf9a0c826e02a049a4d4c","3","S","102",""
"1603","<p> Total Tokens for current block: 1603.00</p><p>Choose one of the following gambles:</p>","1","html-button-response","180","478730","0.0-180.0","5b40ff8b3d066d0001609b63","64ad530e4483ba3cf33d797a","64baf9a0c826e02a049a4d4c","3","R","0",""
"715","<p> Total Tokens for current block: 1603.00</p><p>Choose one of the following gambles:</p>","0","html-button-response","181","479446","0.0-181.0","5b40ff8b3d066d0001609b63","64ad530e4483ba3cf33d797a","64baf9a0c826e02a049a4d4c","3","S","101",""
"850","<p> Total Tokens for current block: 1704.00</p><p>Choose one of the following gambles:</p>","0","html-button-response","182","480298","0.0-182.0","5b40ff8b3d066d0001609b63","64ad530e4483ba3cf33d797a","64baf9a0c826e02a049a4d4c","3","S","97",""
"846","<p> Total Tokens for current block: 1801.00</p><p>Choose one of the following gambles:</p>","0","html-button-response","183","481146","0.0-183.0","5b40ff8b3d066d0001609b63","64ad530e4483ba3cf33d797a","64baf9a0c826e02a049a4d4c","3","S","105",""
"837","<p> Total Tokens for current block: 1906.00</p><p>Choose one of the following gambles:</p>","0","html-button-response","184","481985","0.0-184.0","5b40ff8b3d066d0001609b63","64ad530e4483ba3cf33d797a","64baf9a0c826e02a049a4d4c","3","S","103",""
"890","<p> Total Tokens for current block: 2009.00</p><p>Choose one of the following gambles:</p>","0","html-button-response","185","482877","0.0-185.0","5b40ff8b3d066d0001609b63","64ad530e4483ba3cf33d797a","64baf9a0c826e02a049a4d4c","3","S","104",""
"705","<p> Total Tokens for current block: 2113.00</p><p>Choose one of the following gambles:</p>","0","html-button-response","186","483583","0.0-186.0","5b40ff8b3d066d0001609b63","64ad530e4483ba3cf33d797a","64baf9a0c826e02a049a4d4c","3","S","99",""
"767","<p> Total Tokens for current block: 2212.00</p><p>Choose one of the following gambles:</p>","0","html-button-response","187","484350","0.0-187.0","5b40ff8b3d066d0001609b63","64ad530e4483ba3cf33d797a","64baf9a0c826e02a049a4d4c","3","S","99",""
"706","<p> Total Tokens for current block: 2311.00</p><p>Choose one of the following gambles:</p>","0","html-button-response","188","485058","0.0-188.0","5b40ff8b3d066d0001609b63","64ad530e4483ba3cf33d797a","64baf9a0c826e02a049a4d4c","3","S","97",""
"768","<p> Total Tokens for current block: 2408.00</p><p>Choose one of the following gambles:</p>","0","html-button-response","189","485829","0.0-189.0","5b40ff8b3d066d0001609b63","64ad530e4483ba3cf33d797a","64baf9a0c826e02a049a4d4c","3","S","97",""
"737","<p> Total Tokens for current block: 2505.00</p><p>Choose one of the following gambles:</p>","0","html-button-response","190","486567","0.0-190.0","5b40ff8b3d066d0001609b63","64ad530e4483ba3cf33d797a","64baf9a0c826e02a049a4d4c","3","S","104",""
"710","<p> Total Tokens for current block: 2609.00</p><p>Choose one of the following gambles:</p>","0","html-button-response","191","487279","0.0-191.0","5b40ff8b3d066d0001609b63","64ad530e4483ba3cf33d797a","64baf9a0c826e02a049a4d4c","3","S","100",""
"756","<p> Total Tokens for current block: 2709.00</p><p>Choose one of the following gambles:</p>","0","html-button-response","192","488035","0.0-192.0","5b40ff8b3d066d0001609b63","64ad530e4483ba3cf33d797a","64baf9a0c826e02a049a4d4c","3","S","102",""
"821","<p> Total Tokens for current block: 2811.00</p><p>Choose one of the following gambles:</p>","0","html-button-response","193","488858","0.0-193.0","5b40ff8b3d066d0001609b63","64ad530e4483ba3cf33d797a","64baf9a0c826e02a049a4d4c","3","S","96",""
"780","<p> Total Tokens for current block: 2907.00</p><p>Choose one of the following gambles:</p>","0","html-button-response","194","489640","0.0-194.0","5b40ff8b3d066d0001609b63","64ad530e4483ba3cf33d797a","64baf9a0c826e02a049a4d4c","3","S","99",""
"850","<p> Total Tokens for current block: 3006.00</p><p>Choose one of the following gambles:</p>","0","html-button-response","195","490492","0.0-195.0","5b40ff8b3d066d0001609b63","64ad530e4483ba3cf33d797a","64baf9a0c826e02a049a4d4c","3","S","95",""
"849","<p> Total Tokens for current block: 3101.00</p><p>Choose one of the following gambles:</p>","0","html-button-response","196","491341","0.0-196.0","5b40ff8b3d066d0001609b63","64ad530e4483ba3cf33d797a","64baf9a0c826e02a049a4d4c","3","S","97",""
"617","<p> Total Tokens for current block: 3198.00</p><p>Choose one of the following gambles:</p>","1","html-button-response","197","491961","0.0-197.0","5b40ff8b3d066d0001609b63","64ad530e4483ba3cf33d797a","64baf9a0c826e02a049a4d4c","3","R","205",""
"1059","<p> Total Tokens for current block: 3403.00</p><p>Choose one of the following gambles:</p>","1","html-button-response","198","493021","0.0-198.0","5b40ff8b3d066d0001609b63","64ad530e4483ba3cf33d797a","64baf9a0c826e02a049a4d4c","3","R","0",""
"820","<p> Total Tokens for current block: 3403.00</p><p>Choose one of the following gambles:</p>","0","html-button-response","199","493845","0.0-199.0","5b40ff8b3d066d0001609b63","64ad530e4483ba3cf33d797a","64baf9a0c826e02a049a4d4c","3","S","104",""
"962","<p> Total Tokens for current block: 3507.00</p><p>Choose one of the following gambles:</p>","1","html-button-response","200","494809","0.0-200.0","5b40ff8b3d066d0001609b63","64ad530e4483ba3cf33d797a","64baf9a0c826e02a049a4d4c","3","R","0",""
"682","<p> Total Tokens for current block: 3507.00</p><p>Choose one of the following gambles:</p>","0","html-button-response","201","495492","0.0-201.0","5b40ff8b3d066d0001609b63","64ad530e4483ba3cf33d797a","64baf9a0c826e02a049a4d4c","3","S","98",""
"886","<p> Total Tokens for current block: 3605.00</p><p>Choose one of the following gambles:</p>","0","html-button-response","202","496378","0.0-202.0","5b40ff8b3d066d0001609b63","64ad530e4483ba3cf33d797a","64baf9a0c826e02a049a4d4c","3","S","99",""
"714","<p> Total Tokens for current block: 3704.00</p><p>Choose one of the following gambles:</p>","1","html-button-response","203","497094","0.0-203.0","5b40ff8b3d066d0001609b63","64ad530e4483ba3cf33d797a","64baf9a0c826e02a049a4d4c","3","R","0",""
"764","<p> Total Tokens for current block: 3704.00</p><p>Choose one of the following gambles:</p>","0","html-button-response","204","497859","0.0-204.0","5b40ff8b3d066d0001609b63","64ad530e4483ba3cf33d797a","64baf9a0c826e02a049a4d4c","3","S","99",""
"716","<p> Total Tokens for current block: 3803.00</p><p>Choose one of the following gambles:</p>","1","html-button-response","205","498575","0.0-205.0","5b40ff8b3d066d0001609b63","64ad530e4483ba3cf33d797a","64baf9a0c826e02a049a4d4c","3","R","0",""
"707","<p> Total Tokens for current block: 3803.00</p><p>Choose one of the following gambles:</p>","0","html-button-response","206","499283","0.0-206.0","5b40ff8b3d066d0001609b63","64ad530e4483ba3cf33d797a","64baf9a0c826e02a049a4d4c","3","S","98",""
"791","<p> Total Tokens for current block: 3901.00</p><p>Choose one of the following gambles:</p>","0","html-button-response","207","500074","0.0-207.0","5b40ff8b3d066d0001609b63","64ad530e4483ba3cf33d797a","64baf9a0c826e02a049a4d4c","3","S","98",""
"661","<p> Total Tokens for current block: 3999.00</p><p>Choose one of the following gambles:</p>","1","html-button-response","208","500737","0.0-208.0","5b40ff8b3d066d0001609b63","64ad530e4483ba3cf33d797a","64baf9a0c826e02a049a4d4c","3","R","200",""
"1003","<p> Total Tokens for current block: 4199.00</p><p>Choose one of the following gambles:</p>","1","html-button-response","209","501742","0.0-209.0","5b40ff8b3d066d0001609b63","64ad530e4483ba3cf33d797a","64baf9a0c826e02a049a4d4c","3","R","0",""
"694","<p> Total Tokens for current block: 4199.00</p><p>Choose one of the following gambles:</p>","0","html-button-response","210","502437","0.0-210.0","5b40ff8b3d066d0001609b63","64ad530e4483ba3cf33d797a","64baf9a0c826e02a049a4d4c","3","S","98",""
"817","<p> Total Tokens for current block: 4297.00</p><p>Choose one of the following gambles:</p>","0","html-button-response","211","503255","0.0-211.0","5b40ff8b3d066d0001609b63","64ad530e4483ba3cf33d797a","64baf9a0c826e02a049a4d4c","3","S","96",""
"935","<p> Total Tokens for current block: 4393.00</p><p>Choose one of the following gambles:</p>","1","html-button-response","212","504193","0.0-212.0","5b40ff8b3d066d0001609b63","64ad530e4483ba3cf33d797a","64baf9a0c826e02a049a4d4c","3","R","203",""
"null","<p> Total Tokens for Block 4: 4596.00 </p>","null","html-keyboard-response","213","506195","0.0-213.0","5b40ff8b3d066d0001609b63","64ad530e4483ba3cf33d797a","64baf9a0c826e02a049a4d4c","","","",""
"74216","","{""P0_Q0"":null,""Block 1"":""0 to -200"",""Block 2"":""0 to -40"",""Block 3"":""0 to 40"",""Block 4"":""0 to 200""}","survey","214","580497","0.0-214.0","5b40ff8b3d066d0001609b63","64ad530e4483ba3cf33d797a","64baf9a0c826e02a049a4d4c","","","","[]"
"16478","","{""P0_Q0"":null,""Age"":""43"",""Gender"":""Female"",""English"":""Yes"",""Hand"":""Left-Handed"",""Vision"":""Corrected-to-Normal Vision"",""Education"":""High School""}","survey","215","597000","0.0-215.0","5b40ff8b3d066d0001609b63","64ad530e4483ba3cf33d797a","64baf9a0c826e02a049a4d4c","","","","[]"
"4597","<p> Game Over </p><p>Total Tokens: -200.00</p><p> Additional Amount: £0.00<p><p> Total Amount Received: £2.00<p><p>Press any key to end the experiment.</p>","enter","html-keyboard-response","216","601598","0.0-216.0","5b40ff8b3d066d0001609b63","64ad530e4483ba3cf33d797a","64baf9a0c826e02a049a4d4c","","","",""
